Folder: lasermedia/lasermedia/data (part 3)

File: 011-ems.txt
# Optical emission spectrum of Ce:LiYF4 (Ce:LiYF4)
# assuming unity concentration per meter.  This data was part of the NASA
# Laser Spectra Database found on the web until December of 2005 which
# was created by Pat Cross working at NASA Langley Research Center, Internal
# Operations Group, Aerospace Electronics Systems Division, Remote Sensing.
#
# The spectra was collected by GA on 15 August 1994 and was
# annotated on  6 April 1995.  The sample name was "" was a 9.990
# long piece of :.
# The incident light was unpolarized.
#
# Spectra were recorded from 279.8nm to 399.4nm
# every 0.1nm at room temperature.  The
# excitation wavelength was unknown.
#
# SLIT WIDTH IS 1500 MICRONS, SAMPLE IS CYLINDRICAL SHAPE. C-AXIS IS CUT PERP. TO LONG AXIS OF CYLINDER. PUMP LIGHT IS ALONG A(=B & LONG AXIS ) OF CRYSTAL. SAMPLE IS PLACED SO THAT C-AXIS IS IN THE SAME DIRECTION AS EMISSION IS OBSERVED. (S-POLARIZATION) CONCENTRATION IS ATOMIC PERCENT. FORMAT(1X,G15.8).
#
##Wavelength (nm)	Absorbance (/meter)
279.8	0.00103098
280.2	0.000997031
280.6	0.00127641
281	0.00102147
281.4	0.000755566
281.8	0.00256838
282.2	0.00147032
282.6	0.00133896
283	0.00116684
283.4	0.000968947
283.8	0.000453091
284.2	0.00129798
284.6	0.00131561
285	0.00136028
285.4	0.00127863
285.8	0.00133544
286.2	0.00128478
286.6	0.00160606
287	0.0014095
287.4	0.00222508
287.8	0.00180704
288.2	0.00232572
288.6	0.00187374
289	0.00200129
289.4	0.00201635
289.8	0.00203756
290.2	0.00197613
290.6	0.00172015
291	0.00108318
291.4	0.00164907
291.8	0.00221806
292.2	0.00289749
292.6	0.00205833
293	0.00174473
293.4	0.0017244
293.8	0.00212386
294.2	0.0018597
294.6	0.00246321
295	0.0024009
295.4	0.00250022
295.8	0.00238072
296.2	0.00280095
296.6	0.00309057
297	0.0031795
297.4	0.0036581
297.8	0.00397932
298.2	0.00487143
298.6	0.00515183
299	0.0062692
299.4	0.0077679
299.8	0.00893631
300.2	0.0109755
300.6	0.013978
301	0.0165462
301.4	0.0197715
301.8	0.0251733
302.2	0.0321593
302.6	0.0422827
303	0.0580815
303.4	0.0825366
303.8	0.117683
304.2	0.168095
304.6	0.235117
305	0.315244
305.4	0.411228
305.8	0.512521
306.2	0.6132
306.6	0.70421
307	0.785785
307.4	0.850613
307.8	0.902349
308.2	0.930521
308.6	0.946772
309	0.949478
309.4	0.92976
309.8	0.903549
310.2	0.87248
310.6	0.836498
311	0.795074
311.4	0.753138
311.8	0.71695
312.2	0.679344
312.6	0.643873
313	0.612878
313.4	0.582146
313.8	0.557251
314.2	0.539449
314.6	0.525071
315	0.516573
315.4	0.511248
315.8	0.51195
316.2	0.51982
316.6	0.533701
317	0.552175
317.4	0.574716
317.8	0.605462
318.2	0.641035
318.6	0.683542
319	0.731899
319.4	0.77815
319.8	0.820817
320.2	0.856434
320.6	0.888234
321	0.915002
321.4	0.939956
321.8	0.959483
322.2	0.976363
322.6	0.985899
323	0.997031
323.4	0.999517
323.8	0.998215
324.2	0.993974
324.6	0.986031
325	0.969663
325.4	0.953369
325.8	0.933154
326.2	0.91231
326.6	0.886098
327	0.860194
327.4	0.831568
327.8	0.802972
328.2	0.773382
328.6	0.742401
329	0.708027
329.4	0.676667
329.8	0.646374
330.2	0.613975
330.6	0.582263
331	0.551488
331.4	0.521824
331.8	0.492555
332.2	0.465304
332.6	0.437952
333	0.411637
333.4	0.386947
333.8	0.363002
334.2	0.340491
334.6	0.318506
335	0.297823
335.4	0.278121
335.8	0.260129
336.2	0.242796
336.6	0.227555
337	0.211626
337.4	0.196018
337.8	0.181201
338.2	0.16887
338.6	0.156788
339	0.145448
339.4	0.135913
339.8	0.126626
340.2	0.116793
340.6	0.108547
341	0.100905
341.4	0.0927405
341.8	0.0856244
342.2	0.0791622
342.6	0.0732791
343	0.0679929
343.4	0.0627329
343.8	0.0579206
344.2	0.0537446
344.6	0.0494866
345	0.0459234
345.4	0.0423003
345.8	0.0391189
346.2	0.0363265
346.6	0.0337214
347	0.0310081
347.4	0.0286414
347.8	0.0265585
348.2	0.0246628
348.6	0.0226721
349	0.0210017
349.4	0.0196179
349.8	0.0179841
350.2	0.0167627
350.6	0.0155487
351	0.014468
351.4	0.0135626
351.8	0.0126054
352.2	0.0119442
352.6	0.0110723
353	0.0102589
353.4	0.00960521
353.8	0.00904733
354.2	0.00850452
354.6	0.00803411
355	0.00747257
355.4	0.0070712
355.8	0.00673171
356.2	0.00630738
356.6	0.00599084
357	0.0057495
357.4	0.00550376
357.8	0.00521794
358.2	0.00493476
358.6	0.00486236
359	0.00450546
359.4	0.00442208
359.8	0.00432861
360.2	0.00425255
360.6	0.00410804
361	0.00400755
361.4	0.00384387
361.8	0.00367727
362.2	0.00363412
362.6	0.00354401
363	0.0034523
363.4	0.00353626
363.8	0.00336337
364.2	0.00342173
364.6	0.00361305
365	0.00377995
365.4	0.00364362
365.8	0.00341646
366.2	0.00312026
366.6	0.00323977
367	0.00315683
367.4	0.00303148
367.8	0.00295615
368.2	0.00302299
368.6	0.003017
369	0.0030306
369.4	0.0030638
369.8	0.00301992
370.2	0.0029854
370.6	0.0029304
371	0.00297429
371.4	0.00305898
371.8	0.00296317
372.2	0.00299623
372.6	0.00294679
373	0.00301436
373.4	0.00295922
373.8	0.00300778
374.2	0.00297195
374.6	0.00305283
375	0.00306454
375.4	0.0030739
375.8	0.00299725
376.2	0.00308691
376.6	0.00312568
377	0.00311866
377.4	0.00299198
377.8	0.00309511
378.2	0.00303309
378.6	0.0030521
379	0.00318097
379.4	0.00320539
379.8	0.00307009
380.2	0.00302914
380.6	0.00301978
381	0.00312889
381.4	0.00307609
381.8	0.00307858
382.2	0.00309935
382.6	0.00306059
383	0.0032092
383.4	0.00316517
383.8	0.0031991
384.2	0.00322002
384.6	0.00323582
385	0.00316839
385.4	0.00306556
385.8	0.00323611
386.2	0.00302314
386.6	0.00304523
387	0.00317029
387.4	0.00310052
387.8	0.00320291
388.2	0.00319121
388.6	0.0032111
389	0.00320349
389.4	0.00322675
389.8	0.00315171
390.2	0.00308355
390.6	0.00325235
391	0.00321461
391.4	0.00316502
391.8	0.003311
392.2	0.00333792
392.6	0.00322397
393	0.00322207
393.4	0.00324299
393.8	0.00328102
394.2	0.00333133
394.6	0.00325469
395	0.00327795
395.4	0.00330106
395.8	0.00339584
396.2	0.00337244
396.6	0.00328775
397	0.00350276
397.4	0.00353509
397.8	0.00365445
398.2	0.00349721
398.6	0.00354387
399	0.00342363
399.4	0.00344411

File: 012-ems.txt
# Optical emission spectrum of Ce:LiYF4 (Ce:LiYF4)
# assuming unity concentration per meter.  This data was part of the NASA
# Laser Spectra Database found on the web until December of 2005 which
# was created by Pat Cross working at NASA Langley Research Center, Internal
# Operations Group, Aerospace Electronics Systems Division, Remote Sensing.
#
# The spectra was collected by GA on 15 August 1994 and was
# annotated on  6 April 1995.  The sample name was "" was a 9.990
# long piece of :.
# The incident light was unpolarized.
#
# Spectra were recorded from 279.8nm to 399.4nm
# every 0.1nm at room temperature.  The
# excitation wavelength was unknown.
#
# SLIT WIDTH IS 1500 MICRONS, SAMPLE IS CYLINDRICAL SHAPE. C-AXIS IS CUT PERP. TO LONG AXIS OF CYLINDER. PUMP LIGHT IS ALONG A(=B & LONG AXIS) OF CRYSTAL. POLARIZER AFTER SAMPLE IS PLACED PARALLEL TO THE C-AXIS. (P-POL) CONCENTRATION IS ATOMIC PERCENT. FORMAT(1X,G15.8).
#
##Wavelength (nm)	Absorbance (/meter)
279.8	9.25162e-05
280.2	0.000618123
280.6	0.00088247
281	0
281.4	0
281.8	0
282.2	0.000208026
282.6	0
283	0
283.4	0
283.8	0
284.2	0
284.6	0
285	0
285.4	0
285.8	0
286.2	0
286.6	0.000213494
287	0
287.4	0
287.8	0
288.2	0
288.6	0.000495113
289	0.00044318
289.4	0.000215997
289.8	0
290.2	0
290.6	3.73953e-06
291	2.18856e-05
291.4	0.000872803
291.8	0.000643532
292.2	0.00026723
292.6	0.000397393
293	0.000153875
293.4	0.000550426
293.8	0.000557175
294.2	0.000313741
294.6	0.000897737
295	0.000489004
295.4	0.000816303
295.8	0.00103894
296.2	0.000966988
296.6	0.000565716
297	0.00142879
297.4	0.00240326
297.8	0.00173151
298.2	0.00203068
298.6	0.00278748
299	0.00330407
299.4	0.00400667
299.8	0.00498458
300.2	0.00639712
300.6	0.00810847
301	0.0104897
301.4	0.0133212
301.8	0.0178264
302.2	0.0233684
302.6	0.0318284
303	0.0453643
303.4	0.0665287
303.8	0.095891
304.2	0.136687
304.6	0.190292
305	0.25513
305.4	0.335081
305.8	0.421449
306.2	0.512254
306.6	0.600152
307	0.684503
307.4	0.765569
307.8	0.827015
308.2	0.891106
308.6	0.933145
309	0.968233
309.4	0.991388
309.8	0.997592
310.2	0.998316
310.6	0.983725
311	0.959728
311.4	0.936443
311.8	0.908733
312.2	0.8768
312.6	0.838177
313	0.80577
313.4	0.769092
313.8	0.735688
314.2	0.699924
314.6	0.668881
315	0.641337
315.4	0.613876
315.8	0.590816
316.2	0.568931
316.6	0.550367
317	0.537579
317.4	0.526002
317.8	0.518944
318.2	0.514306
318.6	0.511435
319	0.518256
319.4	0.521209
319.8	0.528279
320.2	0.534365
320.6	0.541612
321	0.548991
321.4	0.558101
321.8	0.563617
322.2	0.569619
322.6	0.574233
323	0.580354
323.4	0.583984
323.8	0.585977
324.2	0.587175
324.6	0.584185
325	0.579464
325.4	0.578444
325.8	0.571102
326.2	0.56676
326.6	0.556274
327	0.548101
327.4	0.53892
327.8	0.527117
328.2	0.514994
328.6	0.500747
329	0.486548
329.4	0.471638
329.8	0.457723
330.2	0.443572
330.6	0.426099
331	0.409279
331.4	0.394415
331.8	0.378781
332.2	0.36285
332.6	0.347429
333	0.33208
333.4	0.315817
333.8	0.301025
334.2	0.285272
334.6	0.27169
335	0.256708
335.4	0.243482
335.8	0.231086
336.2	0.217646
336.6	0.206152
337	0.194527
337.4	0.183044
337.8	0.173258
338.2	0.162203
338.6	0.152559
339	0.143674
339.4	0.133745
339.8	0.125679
340.2	0.118104
340.6	0.110464
341	0.102728
341.4	0.0964615
341.8	0.0896195
342.2	0.0833136
342.6	0.07808
343	0.0726377
343.4	0.067843
343.8	0.0630863
344.2	0.058364
344.6	0.054612
345	0.0511233
345.4	0.047554
345.8	0.044216
346.2	0.0409528
346.6	0.0380121
347	0.0353657
347.4	0.0330526
347.8	0.0306588
348.2	0.0284881
348.6	0.0265249
349	0.0245664
349.4	0.0227444
349.8	0.0212439
350.2	0.0197409
350.6	0.0185796
351	0.0172499
351.4	0.0162036
351.8	0.0152357
352.2	0.0141883
352.6	0.0132535
353	0.0123947
353.4	0.0116494
353.8	0.0108842
354.2	0.0101123
354.6	0.00958293
355	0.00896467
355.4	0.00844962
355.8	0.00816837
356.2	0.00759413
356.6	0.0071442
357	0.00685867
357.4	0.00632796
357.8	0.0060976
358.2	0.00574696
358.6	0.00554162
359	0.00512265
359.4	0.00500119
359.8	0.00473891
360.2	0.00473203
360.6	0.00460547
361	0.00451187
361.4	0.0041999
361.8	0.00405969
362.2	0.00395329
362.6	0.00384677
363	0.00378734
363.4	0.00372423
363.8	0.00356587
364.2	0.00376349
364.6	0.00398828
365	0.00419765
365.4	0.00405969
365.8	0.00364238
366.2	0.00338509
366.6	0.0034794
367	0.00333764
367.4	0.00342008
367.8	0.00323954
368.2	0.00320087
368.6	0.00314583
369	0.0032074
369.4	0.00307419
369.8	0.00314097
370.2	0.0031004
370.6	0.00291084
371	0.00293065
371.4	0.00314204
371.8	0.00313836
372.2	0.0029354
372.6	0.0030367
373	0.00311143
373.4	0.00304702
373.8	0.00291025
374.2	0.00292188
374.6	0.0030246
375	0.00302496
375.4	0.00310491
375.8	0.00296861
376.2	0.00317288
376.6	0.00309791
377	0.00361996
377.4	0.00957629
377.8	0.0047681
378.2	0.00307596
378.6	0.00319933
379	0.00297122
379.4	0.00314631
379.8	0.00313705
380.2	0.00306019
380.6	0.00300017
381	0.00317798
381.4	0.00317217
381.8	0.00309103
382.2	0.00309589
382.6	0.00315698
383	0.00304714
383.4	0.00311381
383.8	0.00293481
384.2	0.0028373
384.6	0.0030641
385	0.00324109
385.4	0.00303255
385.8	0.00304382
386.2	0.0029781
386.6	0.00312187
387	0.00291476
387.4	0.00326493
387.8	0.00309091
388.2	0.00299317
388.6	0.00301808
389	0.0030284
389.4	0.00309874
389.8	0.00296624
390.2	0.00297265
390.6	0.00290835
391	0.00305912
391.4	0.00297478
391.8	0.00291974
392.2	0.00303801
392.6	0.0030456
393	0.00305829
393.4	0.00325852
393.8	0.00308012
394.2	0.00296861
394.6	0.0029851
395	0.00308617
395.4	0.00295794
395.8	0.00298617
396.2	0.0030609
396.6	0.00293172
397	0.003331
397.4	0.00327798
397.8	0.00338402
398.2	0.00315686
398.6	0.00322436
399	0.00333076
399.4	0.00303575

File: 050-abs.txt
# Optical absorption spectrum of Program fragment delivered error ``Can't call method "sample_" on an undefined value at abs.template line 1.'':GSGG (Nd:GaScGa Garnet)
# assuming unity concentration per meter.  This data was part of the NASA
# Laser Spectra Database found on the web until December of 2005 which
# was created by Pat Cross working at NASA Langley Research Center, Internal
# Operations Group, Aerospace Electronics Systems Division, Remote Sensing.
#
# The spectra was collected by MS on 22 January 1988 and was
# annotated on 28 January 1988.  The sample name was "" was a 3.2000
# long piece of :.
# The incident light was unpolarized.
#
# Spectra were recorded from 325 to 830nm
# every 0.2nm at room temperature.
#
# FILE NAME ON PE-3600 = 001 GSGG2.SP ON PC = 001GSGG2.SP NO_POINTS = 2526. pts DATA_INTV = 0.000200 µm MIN_LAMBDA = 0.325000 µm MIN_DATA = 2794.9 MAX_LAMBDA = 0.830000 µm MAX_DATA = 82670.0 SCANSPEED = .01500000 µm/min SLITWIDTH= 0.00020 µmITA = 0. RESP = 0.5 sec ISMS = 0. DATE=88/01/22 INST = 509. ? = 0. THIS ND:CR:GSGG SAMPLE WAS OBTAINED FROM ALLIED. IT IS A SLICED CROSS-SECTION FROM A BOULE. THE MATERIAL COMPOSITION IS CR-2.47at.% (2*10(20)ions/cm3),ND-1.65 at.% (2*10(20)). converted to AU by Mark Storm. header added by hand. ND:CR:GSGG,.125IN THICK,HIGH RES., STORM.
#
##Wavelength (nm)	Absorbance (/meter)
325	6311
326.8	7069
328.6	7515
330.4	8319
332.2	8287
334	8844
335.8	6913
337.6	5757
339.4	5284
341.2	5543
343	5520
344.8	6665
346.6	5708
348.4	6390
350.2	7101
352	13252
353.8	21969
355.6	14468
357.4	8771
359.2	7780
361	12091
362.8	10422
364.6	7472
366.4	4453
368.2	4270
370	4305
371.8	4240
373.6	4213
375.4	4226
377.2	4239
379	4146
380.8	4029
382.6	4135
384.4	4253
386.2	4382
388	4578
389.8	4735
391.6	4953
393.4	5305
395.2	5635
397	6124
398.8	6612
400.6	7273
402.4	8009
404.2	8895
406	9749
407.8	10834
409.6	12125
411.4	13544
413.2	15088
415	16728
416.8	18531
418.6	20538
420.4	22661
422.2	25012
424	27294
425.8	29796
427.6	32383
429.4	35239
431.2	39654
433	41529
434.8	43779
436.6	46694
438.4	48612
440.2	51170
442	53530
443.8	55742
445.6	57911
447.4	59761
449.2	61468
451	63042
452.8	64323
454.6	66204
456.4	66246
458.2	66771
460	67520
461.8	65904
463.6	64961
465.4	63576
467.2	62872
469	62162
470.8	61601
472.6	61328
474.4	61422
476.2	58854
478	58382
479.8	59265
481.6	55052
483.4	55520
485.2	52757
487	50988
488.8	48302
490.6	46195
492.4	43847
494.2	41640
496	39149
497.8	36723
499.6	35090
501.4	32142
503.2	30099
505	28003
506.8	26121
508.6	24492
510.4	26050
512.2	22779
514	22323
515.8	21017
517.6	17798
519.4	18101
521.2	13865
523	12389
524.8	11449
526.6	32588
528.4	10388
530.2	23615
532	9085
533.8	8976
535.6	12711
537.4	9665
539.2	6330
541	5743
542.8	5378
544.6	5204
546.4	5173
548.2	6412
550	5159
551.8	5424
553.6	5381
555.4	5537
557.2	5726
559	6004
560.8	6345
562.6	6584
564.4	7286
566.2	7925
568	9294
569.8	25690
571.6	10395
573.4	14610
575.2	12028
577	11430
578.8	24333
580.6	14295
582.4	19166
584.2	17716
586	33671
587.8	41699
589.6	29473
591.4	24821
593.2	18813
595	21247
596.8	19171
598.6	18051
600.4	18950
602.2	19026
604	19719
605.8	20813
607.6	21304
609.4	22107
611.2	22906
613	24253
614.8	24694
616.6	25398
618.4	26176
620.2	26972
622	27783
623.8	28310
625.6	29612
627.4	29506
629.2	29951
631	30448
632.8	30675
634.6	30785
636.4	31224
638.2	31373
640	31606
641.8	31626
643.6	31551
645.4	31446
647.2	31329
649	31170
650.8	31049
652.6	30808
654.4	30339
656.2	29563
658	29004
659.8	28433
661.6	27962
663.4	27553
665.2	27000
667	26220
668.8	25626
670.6	25368
672.4	24290
674.2	24155
676	27414
677.8	23705
679.6	24534
681.4	24897
683.2	26625
685	20614
686.8	20336
688.6	18989
690.4	17743
692.2	16765
694	16583
695.8	15322
697.6	14137
699.4	13118
701.2	12296
703	11433
704.8	10769
706.6	10212
708.4	9593
710.2	9129
712	8727
713.8	8223
715.6	7725
717.4	7325
719.2	6830
721	6525
722.8	6192
724.6	6043
726.4	5980
728.2	6216
730	6279
731.8	6622
733.6	8652
735.4	31158
737.2	45363
739	8519
740.8	9723
742.6	16234
744.4	19133
746.2	17267
748	27967
749.8	11802
751.6	25039
753.4	17755
755.2	8700
757	22554
758.8	13420
760.6	6157
762.4	6260
764.2	4066
766	3550
767.8	3354
769.6	3332
771.4	3426
773.2	3217
775	3354
776.8	3535
778.6	4029
780.4	6917
782.2	4302
784	4035
785.8	4727
787.6	5713
789.4	5421
791.2	8316
793	22198
794.8	19184
796.6	12820
798.4	9981
800.2	10852
802	13825
803.8	43374
805.6	18303
807.4	72683
809.2	22654
811	26802
812.8	9635
814.6	17647
816.4	8220
818.2	12654
820	5056
821.8	4558
823.6	4073
825.4	3469
827.2	3016
829	3069
830	2841

File: 051-abs.txt
# Optical absorption spectrum of Program fragment delivered error ``Can't call method "sample_" on an undefined value at abs.template line 1.'':GLASS (Nd:Q98 Glass)
# assuming unity concentration per meter.  This data was part of the NASA
# Laser Spectra Database found on the web until December of 2005 which
# was created by Pat Cross working at NASA Langley Research Center, Internal
# Operations Group, Aerospace Electronics Systems Division, Remote Sensing.
#
# The spectra was collected by MS on 22 January 1988 and was
# annotated on 28 January 1988.  The sample name was "" was a 1.8500
# long piece of :.
# The incident light was unpolarized.
#
# Spectra were recorded from 325 to 830nm
# every 0.2nm at room temperature.
#
# FILE NAME ON PE-3600 = 001 GLAS5.SP ON PC = 001GLAS5.SP NO_POINTS = 2526. pts DATA_INTV = 0.000200 µm MIN_LAMBDA = 0.325000 µm MIN_DATA = 0. MAX_LAMBDA = 0.830000 µm MAX_DATA = 31842.0 SCANSPEED = .015 æm/min SLITWIDTH= 0.00020 µmITA = 0. RESP = 0.5 sec ISMS = 0. DATE=88/01/22 INST = 509. ? = 0. ND:GLASS SAMPLE FROM KIGRE CORP. Q-98 GLASS. THE MATERIAL IS SUPPOSE TO BE 3wt.% ND (CONVERSATION WITH J. MEYERS INDICATE 3wt.% APPROX. 3*10(20)IONS/CM3. ND2O3. converted to AU by Mark Storm. header added by hand. Q-98KIGRE ND:GLASS,SAMEAS1-4,HIGHRES, STORM.
#
##Wavelength (nm)	Absorbance (/meter)
325	6506
326.8	6118
328.6	5838
330.4	5230
332.2	4423
334	3342
335.8	2467
337.6	2142
339.4	1899
341.2	1717
343	1593
344.8	1690
346.6	4288
348.4	8329
350.2	10813
352	7265
353.8	7350
355.6	10751
357.4	9111
359.2	3696
361	1389
362.8	557
364.6	227
366.4	180
368.2	74
370	61
371.8	9
373.6	1
375.4	46
377.2	88
379	1
380.8	71
382.6	61
384.4	50
386.2	43
388	54
389.8	1
391.6	1
393.4	54
395.2	1
397	16
398.8	4
400.6	1
402.4	1
404.2	25
406	1
407.8	1
409.6	35
411.4	29
413.2	39
415	61
416.8	34
418.6	148
420.4	158
422.2	139
424	63
425.8	57
427.6	379
429.4	1319
431.2	802
433	817
434.8	302
436.6	121
438.4	88
440.2	56
442	66
443.8	100
445.6	139
447.4	109
449.2	195
451	334
452.8	492
454.6	672
456.4	813
458.2	1030
460	1161
461.8	1208
463.6	1127
465.4	1073
467.2	1128
469	1273
470.8	1533
472.6	1360
474.4	1500
476.2	1869
478	1603
479.8	938
481.6	604
483.4	370
485.2	224
487	136
488.8	150
490.6	121
492.4	68
494.2	230
496	436
497.8	742
499.6	1080
501.4	1407
503.2	1669
505	1961
506.8	2498
508.6	3585
510.4	5185
512.2	5554
514	4447
515.8	4039
517.6	3521
519.4	3476
521.2	5847
523	8975
524.8	9244
526.6	7541
528.4	5959
530.2	4232
532	3521
533.8	2473
535.6	1461
537.4	936
539.2	679
541	521
542.8	445
544.6	458
546.4	466
548.2	428
550	374
551.8	314
553.6	373
555.4	321
557.2	275
559	321
560.8	365
562.6	453
564.4	732
566.2	1316
568	3328
569.8	11758
571.6	16584
573.4	18097
575.2	21038
577	23477
578.8	26427
580.6	28402
582.4	31691
584.2	29130
586	21238
587.8	16777
589.6	12928
591.4	10292
593.2	8193
595	6123
596.8	3788
598.6	2290
600.4	1526
602.2	913
604	452
605.8	252
607.6	168
609.4	191
611.2	136
613	158
614.8	92
616.6	158
618.4	164
620.2	224
622	377
623.8	377
625.6	481
627.4	509
629.2	424
631	453
632.8	412
634.6	309
636.4	273
638.2	235
640	273
641.8	177
643.6	180
645.4	194
647.2	132
649	142
650.8	171
652.6	194
654.4	128
656.2	191
658	183
659.8	147
661.6	233
663.4	271
665.2	207
667	255
668.8	335
670.6	516
672.4	717
674.2	785
676	950
677.8	1076
679.6	1288
681.4	1567
683.2	1693
685	1668
686.8	1306
688.6	1021
690.4	799
692.2	528
694	422
695.8	320
697.6	292
699.4	238
701.2	251
703	190
704.8	253
706.6	221
708.4	216
710.2	237
712	262
713.8	203
715.6	244
717.4	297
719.2	307
721	378
722.8	520
724.6	510
726.4	806
728.2	1114
730	1623
731.8	3364
733.6	8608
735.4	14548
737.2	13550
739	15024
740.8	15953
742.6	16361
744.4	20447
746.2	21433
748	18789
749.8	16758
751.6	12646
753.4	8922
755.2	6636
757	5150
758.8	3961
760.6	2923
762.4	2217
764.2	1611
766	1192
767.8	1013
769.6	822
771.4	737
773.2	611
775	492
776.8	646
778.6	841
780.4	1183
782.2	1738
784	2292
785.8	3003
787.6	3895
789.4	5208
791.2	7623
793	10975
794.8	15244
796.6	18934
798.4	21802
800.2	28236
802	30424
803.8	23573
805.6	17794
807.4	14041
809.2	10729
811	8191
812.8	6762
814.6	5838
816.4	4874
818.2	4198
820	3334
821.8	2699
823.6	1953
825.4	1342
827.2	989
829	812
830	666

File: 053-abs.txt
# Optical absorption spectrum of Program fragment delivered error ``Can't call method "sample_" on an undefined value at abs.template line 1.'':YLF (Nd:LiYF4)
# assuming unity concentration per meter.  This data was part of the NASA
# Laser Spectra Database found on the web until December of 2005 which
# was created by Pat Cross working at NASA Langley Research Center, Internal
# Operations Group, Aerospace Electronics Systems Division, Remote Sensing.
#
# The spectra was collected by MS on  5 January 1988 and was
# annotated on 28 January 1988.  The sample name was "" was a 4.1000
# long piece of :.
# The incident light had unknown polarization.
#
# Spectra were recorded from 325 to 830nm
# every 0.2nm at room temperature.
#
# FILE NAME ON PE-3600 = 001 NYLF5.SP ON PC = 001NYLF5.SP NO_POINTS = 2526. pts DATA_INTV = 0.000200 µm MIN_LAMBDA = 0.325000 µm MIN_DATA = 0. MAX_LAMBDA = 0.830000 µm MAX_DATA = 34350.0 SCANSPEED = .015 µm/min SLITWIDTH= 0.00010 µmITA = 0. RESP = 1.0 sec ISMS = 0. DATE=88/01/05 INST = 509. ? = 0. POLARIZED ND:YLF SPECTRA. CRYSTALS FROM AIRTRON. PLASTIC POLARIZERS USED. ONLY 95% POLARIZED AT 810NM. MORE POL. AT SHORTER WAVELENGTHS TO 400. LESS POLARIZED LONGER THAN 810NM AND SHORTER THAN 400NM. STORM converted by Mark Storm. header added by hand. ND:YLF,AIRTRON,.162 IN THICK,A-AXIS,PERP. TO AWIND.
#
##Wavelength (nm)	Absorbance (/meter)
325	1609
326.8	1962
328.6	1831
330.4	1379
332.2	1178
334	377
335.8	1
337.6	145
339.4	585
341.2	561
343	1534
344.8	895
346.6	4174
348.4	2715
350.2	6452
352	2862
353.8	2936
355.6	9305
357.4	3118
359.2	761
361	804
362.8	343
364.6	152
366.4	142
368.2	74
370	248
371.8	271
373.6	66
375.4	650
377.2	1
379	863
380.8	349
382.6	560
384.4	150
386.2	142
388	147
389.8	590
391.6	259
393.4	67
395.2	257
397	61
398.8	1
400.6	1
402.4	153
404.2	1
406	93
407.8	12
409.6	1
411.4	1
413.2	1
415	28
416.8	105
418.6	183
420.4	1
422.2	1
424	81
425.8	83
427.6	3093
429.4	208
431.2	6
433	1
434.8	1
436.6	1
438.4	1
440.2	1
442	1
443.8	1
445.6	1
447.4	131
449.2	10
451	256
452.8	178
454.6	965
456.4	800
458.2	786
460	988
461.8	280
463.6	540
465.4	12
467.2	330
469	949
470.8	353
472.6	357
474.4	1896
476.2	578
478	2523
479.8	350
481.6	29
483.4	1
485.2	1
487	1
488.8	1
490.6	1
492.4	1
494.2	16
496	241
497.8	700
499.6	1121
501.4	1303
503.2	1271
505	1236
506.8	3042
508.6	1750
510.4	4338
512.2	2670
514	2504
515.8	2069
517.6	1748
519.4	2467
521.2	12827
523	2189
524.8	8411
526.6	1961
528.4	3257
530.2	1158
532	650
533.8	205
535.6	426
537.4	1
539.2	698
541	1
542.8	1
544.6	18
546.4	1
548.2	1
550	1
551.8	1
553.6	1
555.4	1
557.2	1
559	83
560.8	732
562.6	580
564.4	1351
566.2	5348
568	2589
569.8	3019
571.6	9283
573.4	9185
575.2	6933
577	8103
578.8	20161
580.6	8708
582.4	21231
584.2	8824
586	6789
587.8	8866
589.6	6731
591.4	1835
593.2	908
595	868
596.8	1512
598.6	576
600.4	504
602.2	65
604	1
605.8	1
607.6	1
609.4	1
611.2	1
613	1
614.8	1
616.6	1
618.4	1
620.2	1
622	7
623.8	1
625.6	12
627.4	136
629.2	1
631	1
632.8	9
634.6	1
636.4	1
638.2	1
640	1
641.8	1
643.6	223
645.4	1
647.2	206
649	1
650.8	1
652.6	54
654.4	1
656.2	1
658	29
659.8	1
661.6	179
663.4	1
665.2	1
667	1
668.8	6
670.6	296
672.4	1466
674.2	129
676	486
677.8	1503
679.6	874
681.4	771
683.2	1017
685	822
686.8	332
688.6	1
690.4	1
692.2	1
694	1
695.8	1
697.6	1
699.4	90
701.2	1
703	16
704.8	102
706.6	7
708.4	1
710.2	113
712	1
713.8	1
715.6	1
717.4	314
719.2	1
721	589
722.8	644
724.6	821
726.4	851
728.2	1351
730	2658
731.8	12942
733.6	19750
735.4	4557
737.2	4325
739	8293
740.8	8314
742.6	11796
744.4	9379
746.2	15397
748	21857
749.8	13642
751.6	6713
753.4	5187
755.2	2303
757	1685
758.8	1368
760.6	2013
762.4	2575
764.2	59
766	119
767.8	300
769.6	749
771.4	656
773.2	355
775	74
776.8	540
778.6	849
780.4	1226
782.2	1383
784	3377
785.8	6686
787.6	2701
789.4	3999
791.2	7781
793	6334
794.8	5367
796.6	27897
798.4	9480
800.2	7222
802	10486
803.8	10083
805.6	21881
807.4	12238
809.2	13815
811	4415
812.8	3426
814.6	1498
816.4	321
818.2	351
820	1
821.8	1193
823.6	263
825.4	1278
827.2	525
829	505
830	582