Folder: lasermedia/lasermedia/data (part 2)

File: 006-ems.txt
# Optical emission spectrum of Ce:KYF4 (Ce:KYF4)
# assuming unity concentration per meter.  This data was part of the NASA
# Laser Spectra Database found on the web until December of 2005 which
# was created by Pat Cross working at NASA Langley Research Center, Internal
# Operations Group, Aerospace Electronics Systems Division, Remote Sensing.
#
# The spectra was collected by GA on 15 August 1994 and was
# annotated on  6 April 1995.  The sample name was "" was a 9.990
# long piece of :.
# The incident light was unpolarized.
#
# Spectra were recorded from 279.8nm to 449.4nm
# every 0.1nm at room temperature.  The
# excitation wavelength was unknown.
#
# SLIT WIDTH IS 1500 MICRONS, SAMPLE IS RECTANGULAR. C-AXIS IS CUT PERP. TO LONG AXIS OF CRYSTAL. PUMP LIGHT IS ALONG A(=B & LONG AXIS ) OF CRYSTAL. POLARIZER AFTER SAMPLE IS PLACED PARALLEL TO THE C-AXIS (P-POL). 11 RECORDS MISSING FROM MIDDLE OF FILE. INTENSITY SET TO ZERO. CONCENTRATION IS ATOMIC PERCENT. FORMAT(1X,G15.8).
#
##Wavelength (nm)	Absorbance (/meter)
279.8	0.000891352
280.4	0.00110195
281	0.00291415
281.6	0.00268914
282.2	0.00148544
282.8	0.00267143
283.4	0.00279405
284	0.00173897
284.6	0.00350851
285.2	0.00292184
285.8	0.00286571
286.4	0.00254966
287	0.00325727
287.6	0.00347777
288.2	0.00326178
288.8	0.00484673
289.4	0.00487196
290	0.00398777
290.6	0.00455323
291.2	0.00540651
291.8	0.00570336
292.4	0.00544226
293	0.00461353
293.6	0.00661143
294.2	0.0521424
294.8	0.00848705
295.4	0.0100783
296	0.0129307
296.6	0.0193174
297.2	0.0292084
297.8	0.0422381
298.4	0.063956
299	0.0985617
299.6	0.136106
300.2	0.187361
300.8	0.251558
301.4	0.325159
302	0.401634
302.6	0.485425
303.2	0.569083
303.8	0.654194
304.4	0.735997
305	0.800929
305.6	0.873812
306.2	0.924043
306.8	0.945242
307.4	0.964218
308	0.974208
308.6	0.987789
309.2	0.994888
309.8	0.993402
310.4	0.996926
311	0.989509
311.6	0.979203
312.2	0.973272
312.8	0.954312
313.4	0.956768
314	0.942168
314.6	0.927351
315.2	0.916192
315.8	0.903212
316.4	0.891068
317	0.869185
317.6	0.853465
318.2	0.838832
318.8	0.823263
319.4	0.807477
320	0.790472
320.6	0.78115
321.2	0.775989
321.8	0.76037
322.4	0.749094
323	0.735813
323.6	0.726559
324.2	0.716586
324.8	0.705244
325.4	0.695204
326	0.687704
326.6	0.675826
327.2	0.665152
327.8	0.657351
328.4	0.64534
329	0.638174
329.6	0.626664
330.2	0.620901
330.8	0.607621
331.4	0.601022
332	0.593756
332.6	0.583917
333.2	0.574077
333.8	0.563036
334.4	0.553597
335	0.543808
335.6	0.533184
336.2	0.523128
336.8	0.513172
337.4	0.500493
338	0.489301
338.6	0.483304
339.2	0.471777
339.8	0.462773
340.4	0.451798
341	0.442711
341.6	0.43197
342.2	0.422916
342.8	0.409736
343.4	0.40125
344	0.388721
344.6	0.379717
345.2	0.36946
345.8	0.357984
346.4	0.348045
347	0.337554
347.6	0.329452
348.2	0.318761
348.8	0.30934
349.4	0.30077
350	0.292702
350.6	0.284617
351.2	0.278386
351.8	0.269916
352.4	0.262466
353	0.258657
353.6	0.249019
354.2	0.240833
354.8	0.232347
355.4	0.225431
356	0.217012
356.6	0.211817
357.2	0.204283
357.8	0.197083
358.4	0.191003
359	0.185039
359.6	0.180479
360.2	0.176319
360.8	0.168919
361.4	0.166248
362	0.160217
362.6	0.157082
363.2	0.153106
363.8	0.148051
364.4	0.144251
365	0.138458
365.6	0.134444
366.2	0.130802
366.8	0.126522
367.4	0.120767
368	0.118076
368.6	0.113441
369.2	0.108935
369.8	0.105011
370.4	0.10221
371	0.0986753
371.6	0.0945392
372.2	0.0907773
372.8	0.0881012
373.4	0.0850459
374	0.0816999
374.6	0.079398
375.2	0.0772063
375.8	0.0746638
376.4	0.0716369
377	0
377.6	0
378.2	0.0644655
378.8	0.0622204
379.4	0.0610628
380	0.058831
380.6	0.0564723
381.2	0.0544744
381.8	0.0522192
382.4	0.0512637
383	0.049645
383.6	0.0480815
384.2	0.0467267
384.8	0.0451113
385.4	0.0439721
386	0.0426323
386.6	0.0403855
387.2	0.0399997
387.8	0.0392346
388.4	0.0375958
389	0.0372467
389.6	0.0357784
390.2	0.0348796
390.8	0.0332008
391.4	0.0330722
392	0.0318978
392.6	0.0316105
393.2	0.0304729
393.8	0.0305965
394.4	0.0295842
395	0.029033
395.6	0.0284633
396.2	0.0278235
396.8	0.0271303
397.4	0.0272957
398	0.0264738
398.6	0.0259359
399.2	0.0250388
399.8	0.0241217
400.4	0.0246229
401	0.024212
401.6	0.0229992
402.2	0.0223043
402.8	0.0217864
403.4	0.0224362
404	0.0218332
404.6	0.0224696
405.2	0.0224011
405.8	0.0206889
406.4	0.0204333
407	0.0196649
407.6	0.0200207
408.2	0.019583
408.8	0.0193174
409.4	0.019436
410	0.0191287
410.6	0.0186342
411.2	0.0185457
411.8	0.0177121
412.4	0.0186209
413	0.0187278
413.6	0.0175451
414.2	0.0175618
414.8	0.0170138
415.4	0.0170523
416	0.0167482
416.6	0.0168184
417.2	0.0159451
417.8	0.0435962
418.4	0.0163836
419	0.0164673
419.6	0.0138356
420.2	0.0087433
420.8	0.0157414
421.4	0.0168535
422	0.0170389
422.6	0.0783957
423.2	0.042923
423.8	0.0167917
424.4	0.0157007
425	0.0144326
425.6	0.0145776
426.2	0.0145975
426.8	0.0149949
427.4	0.0156626
428	0.0157809
428.6	0.0140419
429.2	0.0145683
429.8	0.0149062
430.4	0.0141124
431	0.0147236
431.6	0.0136276
432.2	0.0137557
432.8	0.0131525
433.4	0.0148476
434	0.0157366
434.6	0.0140354
435.2	0.0160298
435.8	0.0192523
436.4	0.0165411
437	0.0139226
437.6	0.0131413
438.2	0.0136089
438.8	0.0127827
439.4	0.0130734
440	0.0128716
440.6	0.0127471
441.2	0.0144057
441.8	0.0148893
442.4	0.0144572
443	0.0137462
443.6	0.0176787
444.2	0.0136624
444.8	0.0137003
445.4	0.0136457
446	0.0137881
446.6	0.0133179
447.2	0.0134895
447.8	0.0132509
448.4	0.0129197
449	0.0128659
449.4	0.0130541

File: 007-ems.txt
# Optical emission spectrum of Ce:LiCaALF6 (Ce:LiCaAlF6)
# assuming unity concentration per meter.  This data was part of the NASA
# Laser Spectra Database found on the web until December of 2005 which
# was created by Pat Cross working at NASA Langley Research Center, Internal
# Operations Group, Aerospace Electronics Systems Division, Remote Sensing.
#
# The spectra was collected by GA on 15 August 1994 and was
# annotated on  6 April 1995.  The sample name was "" was a 9.990
# long piece of :.
# The incident light was unpolarized.
#
# Spectra were recorded from 260nm to 399.6nm
# every 0.1nm at room temperature.  The
# excitation wavelength was unknown.
#
# SLIT WIDTH IS 1500 MICRONS, SAMPLE IS RECTANGULAR SHAPE. C-AXIS IS CUT PERP. TO LONG AXIS OF CRYSTAL. PUMP LIGHT IS ALONG A(=B & LONG AXIS ) OF CRYSTAL. SAMPLE IS PLACED SO THAT C-AXIS IS IN THE SAME DIRECTION AS EMISSION IS OBSERVED. CONCENTRATION IS ATOMIC PERCENT. FIVE INTENSITY POINTS IN MIDDLE OF DATA FILE ARE MISSING. INTENSITY VALUES SET TO ZERO. FORMAT(1X,G15.8).
#
##Wavelength (nm)	Absorbance (/meter)
260	0.0309733
260.5	0.0319369
261	0.0332706
261.5	0.0299181
262	0.029834
262.5	0.0298792
263	0.028908
263.5	0.0284777
264	0.0274639
264.5	0.0286358
265	0.029297
265.5	0.0246546
266	0.0280875
266.5	0.0254326
267	0.0246534
267.5	0.0278403
268	0.0284702
268.5	0.0292619
269	0.0299344
269.5	0.0311
270	0.0310887
270.5	0.0350422
271	0.038184
271.5	0.0407297
272	0.0488363
272.5	0.05584
273	0.065752
273.5	0.0759802
274	0.0925471
274.5	0.114581
275	0.14119
275.5	0.172419
276	0.213473
276.5	0.258127
277	0.311238
277.5	0.369155
278	0.413935
278.5	0.481813
279	0.536154
279.5	0.59471
280	0
280.5	0.673455
281	0.747393
281.5	0.773892
282	0.799752
282.5	0.832361
283	0.880742
283.5	0.89364
284	0.935948
284.5	0.954944
285	0.969724
285.5	0.983375
286	0.977917
286.5	0.974806
287	0.978055
287.5	0.964279
288	0.948257
288.5	0.937943
289	0.92236
289.5	0.899449
290	0.825799
290.5	0.815147
291	0.765223
291.5	0.733404
292	0.706566
292.5	0.669289
293	0.631862
293.5	0.599378
294	0.555238
294.5	0.538651
295	0.518237
295.5	0.496405
296	0.47815
296.5	0.463545
297	0.45273
297.5	0.436205
298	0.430446
298.5	0.410472
299	0.407335
299.5	0.3981
300	0.386444
300.5	0.375616
301	0.369456
301.5	0.370911
302	0.374424
302.5	0.36785
303	0.370573
303.5	0.372329
304	0.376997
304.5	0.369594
305	0.372467
305.5	0.367059
306	0.36716
306.5	0.366758
307	0.354977
307.5	0.351213
308	0.348164
308.5	0.342631
309	0.334663
309.5	0.332806
310	0.327461
310.5	0.318566
311	0.311928
311.5	0.297838
312	0.290962
312.5	0.280624
313	0.271791
313.5	0.260423
314	0.251189
314.5	0.242306
315	0.235731
315.5	0.220788
316	0.208329
316.5	0.199383
317	0.188354
317.5	0.178254
318	0.16848
318.5	0.157815
319	0.148442
319.5	0.124081
320	0.12966
320.5	0.122084
321	0.113544
321.5	0.106636
322	0.0982447
322.5	0.0907517
323	0.084157
323.5	0.0784921
324	0.0709364
324.5	0.0688486
325	0.0639804
325.5	0.0592138
326	0.0542666
326.5	0.0505677
327	0.0470521
327.5	0.0432429
328	0.0416958
328.5	0.0382756
329	0.0352681
329.5	0.0334889
330	0.0319118
330.5	0.0291088
331	0.0267525
331.5	0.02576
332	0.0244301
332.5	0.0222318
333	0.0212231
333.5	0.0189659
334	0.018139
334.5	0.0173636
335	0.0164628
335.5	0.0153662
336	0.0148354
336.5	0.0140513
337	0.0134365
337.5	0.0123993
338	0.0126711
338.5	0.0120541
339	0.0109694
339.5	0.0107137
340	0.00897755
340.5	0.0100464
341	0.00938771
341.5	0.0085674
342	0.00833703
342.5	0.00796991
343	0.00790429
343.5	0.00743818
344	0.00707319
344.5	0.00575777
345	0.00647922
345.5	0.00618574
346	0.00575639
346.5	0.00563744
347	0.00567935
347.5	0.00528199
348	0.00493695
348.5	0.00494034
349	0.0047815
349.5	0.00396796
350	0.00414022
350.5	0.00405779
351	0.00271527
351.5	0.00312393
352	0.00341112
352.5	0.00280461
353	0.00275781
353.5	0.0027016
354	0.00259118
354.5	0.00288566
355	0.00214263
355.5	0.00264589
356	0.0017922
356.5	0.00207162
357	0.00228353
357.5	0.00207463
358	0.00114756
358.5	0.0011027
359	0.00046618
359.5	0.000421287
360	0
360.5	0.000769175
361	0.000843503
361.5	0.000269206
362	0
362.5	0
363	0
363.5	0
364	0
364.5	0
365	0.000158028
365.5	0.00033913
366	0
366.5	0
367	0
367.5	0
368	0
368.5	0
369	0
369.5	0
370	0
370.5	0
371	0
371.5	0
372	0
372.5	0
373	0
373.5	0
374	0
374.5	0
375	0
375.5	0
376	0
376.5	0
377	0
377.5	0
378	0
378.5	0
379	0
379.5	0
380	0
380.5	0
381	0
381.5	0
382	0
382.5	0
383	0
383.5	0
384	0
384.5	0
385	0
385.5	0
386	0
386.5	0
387	0
387.5	0
388	0
388.5	0
389	0
389.5	0
390	0
390.5	0
391	0
391.5	0
392	0
392.5	0
393	0
393.5	0
394	0
394.5	0
395	0
395.5	0
396	0
396.5	0
397	0
397.5	0
398	0
398.5	0
399	0
399.5	0
399.6	0

File: 008-ems.txt
# Optical emission spectrum of Ce:LiCaALF6 (Ce:LiCaAlF6)
# assuming unity concentration per meter.  This data was part of the NASA
# Laser Spectra Database found on the web until December of 2005 which
# was created by Pat Cross working at NASA Langley Research Center, Internal
# Operations Group, Aerospace Electronics Systems Division, Remote Sensing.
#
# The spectra was collected by GA on 15 August 1994 and was
# annotated on  6 April 1995.  The sample name was "" was a 9.990
# long piece of :.
# The incident light was unpolarized.
#
# Spectra were recorded from 260nm to 399.6nm
# every 0.1nm at room temperature.  The
# excitation wavelength was unknown.
#
# SLIT WIDTH IS 1500 MICRONS, SAMPLE IS RECTANGULAR SHAPE. C-AXIS IS CUT PERP. TO LONG AXIS OF CRYSTAL. PUMP LIGHT IS ALONG A(=B & LONG AXIS ) OF CRYSTAL. POLARIZER AFTER SAMPLE IS PLACED PARALLEL TO THE C-AXIS (P-POL). CONCENTRATION IS ATOMIC PERCENT. 41 INTENSITY VALUES ARE MISSING FROM MIDDLE OF DATA FILE. INTENSITY VALUES SET TO ZERO. FORMAT(1X,G15.8).
#
##Wavelength (nm)	Absorbance (/meter)
260	0.00918293
260.5	0.0108711
261	0.0167476
261.5	0.016705
262	0.0128145
262.5	0.0157807
263	0.0189423
263.5	0.0148332
264	0.018251
264.5	0.0121909
265	0.0144368
265.5	0.0137794
266	0.0185265
266.5	0.0162738
267	0.0161181
267.5	0.0080233
268	0.0149396
268.5	0.0156193
269	0.0191057
269.5	0.0195446
270	0.018366
270.5	0.0206787
271	0.0268046
271.5	0.0261936
272	0.0354907
272.5	0.0414744
273	0.04245
273.5	0.0570163
274	0.0584154
274.5	0.0699362
275	0.0842115
275.5	0.0801286
276	0.10118
276.5	0.122759
277	0.147375
277.5	0.166731
278	0.187557
278.5	0.216997
279	0.232544
279.5	0.271749
280	0.279532
280.5	0.310345
281	0.352577
281.5	0.376061
282	0.407077
282.5	0.450314
283	0.499101
283.5	0.539418
284	0.605095
284.5	0.647191
285	0.69739
285.5	0.754887
286	0.809755
286.5	0.847646
287	0.863222
287.5	0.90087
288	0.943759
288.5	0.977859
289	0.992169
289.5	0.976022
290	0.990525
290.5	0.977473
291	0.994199
291.5	0.971478
292	0.971865
292.5	0.93119
293	0.887866
293.5	0.896626
294	0.849038
294.5	0.817074
295	0.815653
295.5	0.814193
296	0.75684
296.5	0.71051
297	0.686764
297.5	0.680615
298	0.668027
298.5	0.663492
299	0.646669
299.5	0.612395
300	0.594885
300.5	0.603423
301	0.602775
301.5	0
302	0
302.5	0.6032
303	0.614483
303.5	0.62798
304	0.627719
304.5	0.648197
305	0.648052
305.5	0.658629
306	0.658349
306.5	0.656695
307	0.647008
307.5	0.634787
308	0.613371
308.5	0.599826
309	0.59213
309.5	0.576506
310	0.565735
310.5	0.553853
311	0.529431
311.5	0.516059
312	0.497322
312.5	0.474553
313	0.457846
313.5	0.435734
314	0.41924
314.5	0.397012
315	0.380151
315.5	0.357536
316	0.338915
316.5	0.323494
317	0.30438
317.5	0.280219
318	0.262815
318.5	0.247704
319	0.232998
319.5	0.219491
320	0.205762
320.5	0.194218
321	0.184937
321.5	0.174572
322	0.158242
322.5	0.145287
323	0.138151
323.5	0.127719
324	0.11953
324.5	0.114029
325	0.104505
325.5	0.0980953
326	0.0954849
326.5	0.087902
327	0.0787692
327.5	0.0770918
328	0.0702485
328.5	0.0674108
329	0.063179
329.5	0.0616543
330	0.059039
330.5	0.0527855
331	0.0492488
331.5	0.0473963
332	0.0459035
332.5	0.0425708
333	0.0407145
333.5	0.037172
334	0.0352509
334.5	0.035305
335	0.0310722
335.5	0.0318486
336	0.029707
336.5	0.0281553
337	0.0291482
337.5	0.0283602
338	0.0266596
338.5	0.0215585
339	0.0225321
339.5	0.021371
340	0.0213168
340.5	0.0211795
341	0.0204525
341.5	0.0168065
342	0.0184734
342.5	0.0174553
343	0.0172735
343.5	0.0146108
344	0.0156898
344.5	0.0156415
345	0.0151339
345.5	0.0142396
346	0.0132196
346.5	0.0126114
347	0.0123165
347.5	0.0125612
348	0.0132495
348.5	0.00965387
349	0.0116958
349.5	0.00848632
350	0.0087637
350.5	0.0081311
351	0.00764565
351.5	0.00849057
352	0.0087958
352.5	0.0093965
353	0.00685816
353.5	0.0043935
354	0.00935821
354.5	0.00233182
355	0.00672493
355.5	0.00545731
356	0.00614715
356.5	0.00611544
357	0.00481417
357.5	0.00562351
358	0.00538026
358.5	0.00563676
359	0
359.5	0.00500309
360	0.00438209
360.5	0.00653688
361	0.00682152
361.5	0.00612936
362	0.007035
362.5	0.00504496
363	0.0055569
363.5	0.00551165
364	0.00561742
364.5	0.0073848
365	0.00721125
365.5	0.00573625
366	0
366.5	0
367	0.00271478
367.5	0.00622237
368	0.00634187
368.5	0.00554694
369	0.00535048
369.5	0.00541042
370	0.0054168
370.5	0.00442686
371	0.00442048
371.5	0.00366934
372	0.0033964
372.5	0.00381147
373	0.00205994
373.5	0.00146118
374	0.00217945
374.5	0.00394518
375	0.0043965
375.5	0.00495823
376	0.00450537
376.5	0.00457498
377	0
377.5	0
378	0
378.5	0.00347037
379	0.00354559
379.5	0.0010672
380	0.00172203
380.5	0.00128589
381	0.00180963
381.5	0.000886039
382	0
382.5	0.00139254
383	0.000799014
383.5	0.00156889
384	0
384.5	0.000155999
385	0.002522
385.5	0.00153224
386	0.00334332
386.5	0.000417055
387	0
387.5	0
388	0
388.5	0
389	0
389.5	0
390	0
390.5	0
391	0
391.5	0
392	0
392.5	0
393	0.00141004
393.5	0
394	0
394.5	0
395	0
395.5	0
396	0
396.5	0
397	0
397.5	0
398	0
398.5	0
399	0
399.5	0
399.6	0

File: 009-ems.txt
# Optical emission spectrum of Ce:LiSrALF6 (Ce:LiSrAlF6)
# assuming unity concentration per meter.  This data was part of the NASA
# Laser Spectra Database found on the web until December of 2005 which
# was created by Pat Cross working at NASA Langley Research Center, Internal
# Operations Group, Aerospace Electronics Systems Division, Remote Sensing.
#
# The spectra was collected by GA on 15 August 1994 and was
# annotated on  6 April 1995.  The sample name was "" was a 9.9900
# long piece of :.
# The incident light was unpolarized.
#
# Spectra were recorded from 260nm to 399.6nm
# every 0.1nm at room temperature.  The
# excitation wavelength was unknown.
#
# SLIT WIDTH IS 1500 MICRONS, SAMPLE IS CYLINDRICAL SHAPE. C-AXIS IS CUT PERP. TO LONG AXIS OF CYLINDER. PUMP LIGHT IS ALONG A(=B & LONG AXIS ) OF CRYSTAL. SAMPLE IS PLACED SO THAT C-AXIS IS IN THE SAME DIRECTION AS EMISSION IS OSBERVED. (S-POL) CONCENTRATION IS ATOMIC PERCENT. TEN (10) INTENSITY VALUES MISSING FROM MIDDLE OF FILE. POINTS SET TO ZERO. FORMAT(1X,G15.8).
#
##Wavelength (nm)	Absorbance (/meter)
260	0.0153179
260.5	0.01399
261	0.0149108
261.5	0.0125889
262	0.013229
262.5	0.0105769
263	0.01244
263.5	0.00941046
264	0.0105451
264.5	0.0104973
265	0.00970146
265.5	0.0101825
266	0.0115767
266.5	0.00936556
267	0.0124197
267.5	0.0130953
268	0.0125055
268.5	0.0129925
269	0.0121338
269.5	0.0132901
270	0.0153135
270.5	0.0171068
271	0.0185698
271.5	0.0238017
272	0.0258209
272.5	0.030194
273	0.0411272
273.5	0.0466895
274	0.0596361
274.5	0.0739922
275	0.0935339
275.5	0.116823
276	0.14514
276.5	0.178861
277	0.228674
277.5	0.276185
278	0.322392
278.5	0.390283
279	0.442429
279.5	0.50822
280	0.555905
280.5	0.610817
281	0.689268
281.5	0.734128
282	0.771021
282.5	0.815751
283	0.862349
283.5	0.881658
284	0.934731
284.5	0
285	0.973956
285.5	0.98143
286	0.978084
286.5	0.992772
287	0.990063
287.5	0.971102
288	0.975911
288.5	0.962629
289	0.951446
289.5	0.933253
290	0.893405
290.5	0.855034
291	0.821733
291.5	0.80128
292	0.762895
292.5	0.727407
293	0.697496
293.5	0.668584
294	0.627968
294.5	0.608572
295	0.579457
295.5	0.5545
296	0.53438
296.5	0.510596
297	0.510523
297.5	0.491273
298	0.48277
298.5	0.461839
299	0.44944
299.5	0.444863
300	0.428857
300.5	0.420398
301	0.412967
301.5	0.407245
302	0.400539
302.5	0.395107
303	0.390443
303.5	0.395744
304	0.397816
304.5	0.390023
305	0.389472
305.5	0.376986
306	0.373669
306.5	0.370584
307	0.365167
307.5	0.360502
308	0.357605
308.5	0.347089
309	0.345815
309.5	0.337355
310	0.328882
310.5	0.326579
311	0.317931
311.5	0.311659
312	0.301244
312.5	0.300361
313	0.294422
313.5	0.283848
314	0
314.5	0
315	0.256587
315.5	0.250373
316	0.241276
316.5	0.230862
317	0.221896
317.5	0.213726
318	0.204658
318.5	0.196547
319	0.185104
319.5	0.175964
320	0.166722
320.5	0.157119
321	0.150267
321.5	0.145458
322	0.135044
322.5	0.128485
323	0.121952
323.5	0.114252
324	0.107548
324.5	0.100249
325	0.0950374
325.5	0.0895085
326	0.0849762
326.5	0.0797891
327	0.0744557
327.5	0.0713241
328	0.0659588
328.5	0.0634964
329	0.0602242
329.5	0.0555224
330	0.0521431
330.5	0.0491099
331	0.0469951
331.5	0.045858
332	0.0409534
332.5	0.0397642
333	0.0376943
333.5	0.0357692
334	0.0350522
334.5	0.0311384
335	0.0302273
335.5	0.0285456
336	0.026819
336.5	0.0255081
337	0.0236178
337.5	0.0225792
338	0.0212987
338.5	0.0214175
339	0.0192404
339.5	0.0185422
340	0.0186914
340.5	0.0179194
341	0.0162724
341.5	0.0156814
342	0.0143561
342.5	0.0140971
343	0.0131105
343.5	0.0129635
344	0.0119763
344.5	0.0113425
345	0.0112056
345.5	0.0101557
346	0.00938598
346.5	0.00928357
347	0.00875893
347.5	0.00711256
348	0.00856497
348.5	0.00717615
349	0.00651346
349.5	0.00553631
350	0.00544462
350.5	0.00568796
351	0.00484508
351.5	0.00455365
352	0.00445022
352.5	0.00421325
353	0.00435578
353.5	0.00441865
354	0.00379507
354.5	0.00372988
355	0.00278836
355.5	0.0028463
356	0.0024849
356.5	0.00232238
357	0.0021067
357.5	0.00204166
358	0.00239611
358.5	0.00142673
359	0.0021319
359.5	0.00210365
360	0.00143539
360.5	0.000716167
361	0.00117438
361.5	0.000974086
362	0.000910323
362.5	0.000480916
363	0
363.5	0.000518461
364	0.000633863
364.5	0.00076417
365	0.00109911
365.5	0.000880296
366	0.000834408
366.5	0.000159654
367	0.00156264
367.5	0.000235772
368	3.07299e-05
368.5	0.00129163
369	0.00048025
369.5	0
370	0
370.5	0
371	0
371.5	0
372	0
372.5	0
373	0
373.5	0
374	0.000177137
374.5	0
375	0
375.5	0.000172342
376	0.000814013
376.5	0
377	0.000191115
377.5	0.000445804
378	0.000454133
378.5	0.000910222
379	0.000825079
379.5	0.000703246
380	0.000142383
380.5	0
381	0.000484001
381.5	0.000531642
382	0.00192665
382.5	0.000883888
383	0.00110241
383.5	0.00102468
384	0.000670568
384.5	0.000740603
385	0.00229573
385.5	0.00204702
386	0.0025369
386.5	0.00186538
387	0.0013976
387.5	0.00252357
388	0.00310037
388.5	0.00275867
389	0.00164738
389.5	0.00294378
390	0.00194939
390.5	0.0019504
391	0.00302504
391.5	0.00200661
392	0.00299014
392.5	0.00351956
393	0.00317801
393.5	0.00346524
394	0.00323624
394.5	0.00307067
395	0.00420963
395.5	0.00442936
396	0.00432449
396.5	0.00405145
397	0
397.5	0.00313513
398	0.0051836
398.5	0.00633617
399	0.00631024
399.5	0.00534844
399.6	0.0050205

File: 010-ems.txt
# Optical emission spectrum of Ce:LiSrALF6 (Ce:LiSrAlF6)
# assuming unity concentration per meter.  This data was part of the NASA
# Laser Spectra Database found on the web until December of 2005 which
# was created by Pat Cross working at NASA Langley Research Center, Internal
# Operations Group, Aerospace Electronics Systems Division, Remote Sensing.
#
# The spectra was collected by GA on 15 August 1994 and was
# annotated on  6 April 1995.  The sample name was "" was a 9.990
# long piece of :.
# The incident light was unpolarized.
#
# Spectra were recorded from 260nm to 399.6nm
# every 0.1nm at room temperature.  The
# excitation wavelength was unknown.
#
# SLIT WIDTH IS 1500 MICRONS, SAMPLE IS CYLINDRICAL SHAPE. C-AXIS IS CUT PERP. TO LONG AXIS OF CYLINDER. PUMP LIGHT IS ALONG A(=B & LONG AXIS ) OF CRYSTAL. POLARIZER AFTER CRYSTAL IS PLACED PARALLEL TO THE C-AXIS (P-POL). CONCENTRATION IS ATOMIC PERCENT. TEN (10) INTENSITY VALUES MISSING FROM MIDDLE OF FILE. POINTS SET TO ZERO. FORMAT(1X,G15.8).
#
##Wavelength (nm)	Absorbance (/meter)
260	0
260.5	0
261	0
261.5	0
262	0
262.5	0
263	0
263.5	0
264	0
264.5	0
265	0
265.5	0
266	0
266.5	0
267	0
267.5	0
268	0
268.5	0
269	0
269.5	0
270	0
270.5	0
271	0.00220446
271.5	0.00130883
272	0.0025994
272.5	0.00584742
273	0.00776052
273.5	0.00557411
274	0.00611032
274.5	0.0098619
275	0.0150873
275.5	0.0220992
276	0.0298938
276.5	0.0302153
277	0.0464107
277.5	0.054995
278	0.0596835
278.5	0.0749296
279	0.0843224
279.5	0.103482
280	0.117867
280.5	0.137222
281	0.157837
281.5	0
282	0.209256
282.5	0.241736
283	0.279603
283.5	0.317698
284	0.360913
284.5	0
285	0.458631
285.5	0.523234
286	0.563343
286.5	0.62876
287	0.668978
287.5	0.723502
288	0.785079
288.5	0.845942
289	0.877937
289.5	0.922827
290	0.93875
290.5	0.967351
291	0.977312
291.5	0.990437
292	0.996329
292.5	0.9913
293	0.971577
293.5	0.95498
294	0.919772
294.5	0.896865
295	0.875347
295.5	0.85119
296	0.828135
296.5	0.801577
297	0.777966
297.5	0.738651
298	0.712183
298.5	0.684296
299	0.649653
299.5	0.620089
300	0.58497
300.5	0.564821
301	0.542302
301.5	0.527937
302	0.511181
302.5	0.498105
303	0.491349
303.5	0.483343
304	0.490159
304.5	0.476865
305	0.471101
305.5	0.474444
306	0.48246
306.5	0.473433
307	0.464702
307.5	0.449524
308	0.444444
308.5	0.431726
309	0.421756
309.5	0.409087
310	0.401409
310.5	0.387321
311	0.385486
311.5	0.366935
312	0.358343
312.5	0.346716
313	0.335774
313.5	0.325933
314	0.317391
314.5	0.305476
315	0.297004
315.5	0.283433
316	0.273145
316.5	0.260744
317	0.250308
317.5	0.236468
318	0.226329
318.5	0.216359
319	0.207252
319.5	0.194812
320	0.187659
320.5	0.177341
321	0.166716
321.5	0.158958
322	0.151796
322.5	0.146597
323	0.138046
323.5	0.129643
324	0.124196
324.5	0.11754
325	0.112996
325.5	0.105923
326	0.100456
326.5	0.0979425
327	0.0934752
327.5	0.0888165
328	0.0875655
328.5	0.0825863
329	0.077371
329.5	0.0738601
330	0.070748
330.5	0.06687
331	0.0647609
331.5	0.0609315
332	0.0588085
332.5	0.0572381
333	0.0549633
333.5	0.0526339
334	0.0506796
334.5	0.0474335
335	0.0462728
335.5	0.0439712
336	0.0433006
336.5	0.04162
337	0.039497
337.5	0.0380635
338	0.0328899
338.5	0.0291855
339	0.0355704
339.5	0.0335952
340	0.0317937
340.5	0.0309831
341	0.0310188
341.5	0.0298095
342	0.0280823
342.5	0.0253244
343	0.0253482
343.5	0.025127
344	0.024256
344.5	0.0226677
345	0.0219157
345.5	0.0220079
346	0.0211429
346.5	0.0225317
347	0.0210556
347.5	0.0196905
348	0.0188839
348.5	0.0179841
349	0.0168194
349.5	0.0148413
350	0.0155625
350.5	0.0143343
351	0.0140724
351.5	0.0143571
352	0.0133919
352.5	0.0129454
353	0.00421766
353.5	0.0114702
354	0.0115913
354.5	0.00995833
355	0.0101944
355.5	0.00961875
356	0.00864177
356.5	0.00904742
357	0.00321647
357.5	0.00691885
358	0.00704315
358.5	0.00537897
359	0.00465565
359.5	0.00390079
360	0.00194762
360.5	0.000526349
361	0
361.5	0
362	0
362.5	0
363	0
363.5	0
364	0
364.5	0
365	0
365.5	0
366	5.58145e-05
366.5	0
367	0.000725694
367.5	0.000759077
368	0.00201607
368.5	0.00217907
369	0.00131736
369.5	0.00167034
370	0.00148274
370.5	0.00212738
371	0.00200982
371.5	0.00240982
372	0.00283859
372.5	0.00383879
373	0.00341994
373.5	0.00392927
374	0.00347827
374.5	0.00515982
375	0.00743879
375.5	0.0060001
376	0.00607073
376.5	0.0065874
377	0.00811052
377.5	0.00693601
378	0.00809306
378.5	0.00906012
379	0.00960952
379.5	0.00999603
380	0.00165288
380.5	0.00947827
381	0.0112718
381.5	0.0103413
382	0.0108948
382.5	0.0128234
383	0.0120903
383.5	0.0125833
384	0.0131984
384.5	0.0137173
385	0.0125913
385.5	0.0134117
386	0.013501
386.5	0.0145238
387	0.0150714
387.5	0.0182579
388	0.0181081
388.5	0.0171488
389	0.0166012
389.5	0.015496
390	0.0143611
390.5	0.0155873
391	0.0164802
391.5	0.0157778
392	0.0167242
392.5	0.0200099
393	0.0200982
393.5	0.020374
394	0.0211498
394.5	0.0202232
395	0.0195337
395.5	0.0195913
396	0.0193978
396.5	0.0197669
397	0.0205933
397.5	0.0210476
398	0.0227054
398.5	0.0244196
399	0.0242262
399.5	0.0213601
399.6	0.0213264