Folder: lasermedia/lasermedia/data

Note: lasermedia/data/007-orig-ems.txt
11102 11  1 CELCAF.01  CL5135 GA   .000 U  #  81594 00.00   1         
  PROGRAM    EHEAD   VERSION 01.01 DEUTERIUM LAMP                       
  USER PLC DATE & TIME  1995  4  6 00.00 00.00     9.990    295K S      
 EC1 Ce   1     0     0 LiCaALF6         .260000 -  .399600 .00010      
 SLIT WIDTH IS 1500 MICRONS, SAMPLE IS RECTANGULAR SHAPE. C-AXIS         
 IS CUT PERP. TO LONG AXIS OF CRYSTAL. PUMP LIGHT IS ALONG A(=B          
 & LONG AXIS ) OF CRYSTAL. SAMPLE IS PLACED SO THAT C-AXIS IS IN         
 THE SAME DIRECTION AS EMISSION IS OBSERVED. CONCENTRATION IS            
 ATOMIC PERCENT. FIVE INTENSITY POINTS IN MIDDLE OF DATA FILE ARE        
 MISSING. INTENSITY VALUES SET TO ZERO.                                  
  FORMAT(1X,G15.8)                                                       
  EOH                                                                    
  1397.           
   .24686000E-22  
   .21772000E-22  
   .24276000E-22  
   .23740000E-22  
   .24114000E-22  
   .25454000E-22  
   .26018000E-22  
   .26276000E-22  
   .27039000E-22  
   .27474000E-22  
   .26517000E-22  
   .26142000E-22  
   .25972000E-22  
   .25160000E-22  
   .24058000E-22  
   .23845000E-22  
   .23303000E-22  
   .22511000E-22  
   .22971000E-22  
   .23614000E-22  
   .23778000E-22  
   .23889000E-22  
   .24635000E-22  
   .24687000E-22  
   .24391000E-22  
   .23814000E-22  
   .23016000E-22  
   .23103000E-22  
   .23067000E-22  
   .22973000E-22  
   .23040000E-22  
   .22822000E-22  
   .22942000E-22  
   .22711000E-22  
   .22922000E-22  
   .22697000E-22  
   .22735000E-22  
   .21501000E-22  
   .21072000E-22  
   .21147000E-22  
   .21889000E-22  
   .22048000E-22  
   .22669000E-22  
   .22727000E-22  
   .22520000E-22  
   .22823000E-22  
   .23595000E-22  
   .23426000E-22  
   .24103000E-22  
   .24167000E-22  
   .23350000E-22  
   .22067000E-22  
   .21822000E-22  
   .20752000E-22  
   .20122000E-22  
   .19650000E-22  
   .20437000E-22  
   .21236000E-22  
   .21691000E-22  
   .22099000E-22  
   .22386000E-22  
   .22178000E-22  
   .21342000E-22  
   .21296000E-22  
   .20836000E-22  
   .20270000E-22  
   .19811000E-22  
   .19438000E-22  
   .19316000E-22  
   .19342000E-22  
   .19649000E-22  
   .20417000E-22  
   .21200000E-22  
   .21456000E-22  
   .21963000E-22  
   .22189000E-22  
   .22452000E-22  
   .21761000E-22  
   .21341000E-22  
   .21440000E-22  
   .22691000E-22  
   .23077000E-22  
   .23942000E-22  
   .24372000E-22  
   .24468000E-22  
   .23322000E-22  
   .22359000E-22  
   .21974000E-22  
   .22309000E-22  
   .23000000E-22  
   .23858000E-22  
   .24753000E-22  
   .25361000E-22  
   .25262000E-22  
   .25056000E-22  
   .24787000E-22  
   .24886000E-22  
   .24836000E-22  
   .24699000E-22  
   .24743000E-22  
   .24778000E-22  
   .24903000E-22  
   .25393000E-22  
   .26608000E-22  
   .27

Note: lasermedia/data/008-orig-ems.txt
11102 11  1 CELCAF.02  CL5135 GA   .000 U  #  81594 00.00   1         
  PROGRAM    EHEAD   VERSION 01.01 DEUTERIUM LAMP                       
  USER PLC DATE & TIME  1995  4  6 00.00 00.00     9.990    295K P       
 EC1 Ce   1     0     0 LiCaALF6         .260000 -  .399600 .00010       
 SLIT WIDTH IS 1500 MICRONS, SAMPLE IS RECTANGULAR SHAPE. C-AXIS         
 IS CUT PERP. TO LONG AXIS OF CRYSTAL. PUMP LIGHT IS ALONG A(=B          
 & LONG AXIS ) OF CRYSTAL. POLARIZER AFTER SAMPLE IS PLACED              
 PARALLEL TO THE C-AXIS (P-POL). CONCENTRATION IS ATOMIC PERCENT.        
 41 INTENSITY VALUES ARE MISSING FROM MIDDLE OF DATA FILE.               
 INTENSITY VALUES SET TO ZERO.                                           
  FORMAT(1X,G15.8)                                                       
  EOH                                                                    
  1397.           
   .94979000E-23  
   .19873000E-23  
   .84066000E-23  
   .89892000E-23  
   .10132000E-22  
   .11244000E-22  
   .12503000E-22  
   .13862000E-22  
   .16065000E-22  
   .17206000E-22  
   .17322000E-22  
   .18074000E-22  
   .18231000E-22  
   .17925000E-22  
   .18083000E-22  
   .17278000E-22  
   .15158000E-22  
   .14715000E-22  
   .13436000E-22  
   .13972000E-22  
   .13254000E-22  
   .12938000E-22  
   .11950000E-22  
   .12540000E-22  
   .13553000E-22  
   .16322000E-22  
   .18827000E-22  
   .21279000E-22  
   .22649000E-22  
   .21539000E-22  
   .19592000E-22  
   .18732000E-22  
   .16953000E-22  
   .14207000E-22  
   .14331000E-22  
   .15342000E-22  
   .15464000E-22  
   .15947000E-22  
   .17568000E-22  
   .18511000E-22  
   .18877000E-22  
   .18752000E-22  
   .17409000E-22  
   .15737000E-22  
   .13118000E-22  
   .12609000E-22  
   .13259000E-22  
   .14282000E-22  
   .14392000E-22  
   .15167000E-22  
   .14932000E-22  
   .14466000E-22  
   .14368000E-22  
   .14429000E-22  
   .14774000E-22  
   .14252000E-22  
   .15402000E-22  
   .17133000E-22  
   .18327000E-22  
   .18709000E-22  
   .19162000E-22  
   .18989000E-22  
   .17418000E-22  
   .17252000E-22  
   .17334000E-22  
   .16832000E-22  
   .15595000E-22  
   .15263000E-22  
   .15201000E-22  
   .15800000E-22  
   .16671000E-22  
   .18102000E-22  
   .19029000E-22  
   .15088000E-22  
   .10376000E-22  
   .82985000E-23  
   .68640000E-23  
   .55730000E-23  
   .86150000E-23  
   .12573000E-22  
   .15452000E-22  
   .16273000E-22  
   .18044000E-22  
   .18451000E-22  
   .17780000E-22  
   .16155000E-22  
   .16390000E-22  
   .15618000E-22  
   .16247000E-22  
   .17969000E-22  
   .19761000E-22  
   .20118000E-22  
   .21312000E-22  
   .21865000E-22  
   .21837000E-22  
   .20215000E-22  
   .18307000E-22  
   .16654000E-22  
   .16409000E-22  
   .16372000E-22  
   .18996000E-22  
   .20311000E-22  
   .20735000E-22  
   .21014000E-22  
   .

File: 002-ems.txt
# Optical emission spectrum of Ce:GdLiF4 (Ce:GdLiF4)
# assuming unity concentration per meter.  This data was part of the NASA
# Laser Spectra Database found on the web until December of 2005 which
# was created by Pat Cross working at NASA Langley Research Center, Internal
# Operations Group, Aerospace Electronics Systems Division, Remote Sensing.
#
# The spectra was collected by GA on 15 August 1994 and was
# annotated on  6 April 1995.  The sample name was "" was a 9.990
# long piece of :.
# The incident light was unpolarized.
#
# Spectra were recorded from 260nm to 499.2nm
# every 0.1nm at room temperature.  The
# excitation wavelength was unknown.
#
# SLIT WIDTH IS 1500 MICRONS, SAMPLE SHAPE IS CYLINDRICAL, C-AXIS PERP. TO LONG CYLINDER AXIS, PUMP IS ALONG A(=B AXIS & LONG AXIS) OF CRYSTAL. POLARIZER IS PLACED AFTER SAMPLE PARALLEL TO THE C-AX (Pi-POL). INTENSITY MISSING FOR 9 DATA POINTS. INSERTED 0.0 FOR ALL POINTS. FORMAT(1X,G15.8).
#
##Wavelength (nm)	Absorbance (/meter)
260	0.0012846
260.8	0.00074826
261.6	0.00084989
262.4	0.00055237
263.2	0.00182
264	0.00086997
264.8	0.00077097
265.6	0.00086673
266.4	0.0010561
267.2	0.0013805
268	0.0011938
268.8	0.0011816
269.6	0.0015767
270.4	0.00061326
271.2	0.00014342
272	0
272.8	0
273.6	2.2228e-05
274.4	0
275.2	0
276	0
276.8	0
277.6	0
278.4	0
279.2	0
280	0
280.8	9.8743e-06
281.6	0.00039674
282.4	0
283.2	0
284	0
284.8	0
285.6	0
286.4	0
287.2	0
288	0
288.8	0
289.6	0
290.4	0
291.2	0
292	0
292.8	0.00069093
293.6	0
294.4	0
295.2	2.6652e-05
296	0.00039471
296.8	0.00059538
297.6	0
298.4	0.00077995
299.2	0.0014392
300	0.002293
300.8	0.0043127
301.6	0.010286
302.4	0.022058
303.2	0.043439
304	0.070729
304.8	0.1081
305.6	0.14941
306.4	0.18139
307.2	0.21588
308	0.24134
308.8	0.2489
309.6	0.30024
310.4	0.62858
311.2	0.9882
312	0.52031
312.8	0.29854
313.6	0.36162
314.4	0.39938
315.2	0.25629
316	0.17742
316.8	0.14693
317.6	0.13899
318.4	0.1407
319.2	0.14505
320	0.14648
320.8	0.14806
321.6	0.15253
322.4	0.15322
323.2	0.15347
324	0.15234
324.8	0.15304
325.6	0.14552
326.4	0.1426
327.2	0.13684
328	0.13441
328.8	0.12554
329.6	0.11824
330.4	0.11126
331.2	0.10493
332	0.098942
332.8	0.090815
333.6	0.084377
334.4	0.078237
335.2	0.071485
336	0.064956
336.8	0.060683
337.6	0.055565
338.4	0.051208
339.2	0.046844
340	0
340.8	0.041142
341.6	0.03881
342.4	0.037407
343.2	0.035459
344	0.034026
344.8	0.032696
345.6	0.0314
346.4	0.03041
347.2	0.030117
348	0.028881
348.8	0.027749
349.6	0.027085
350.4	0.026364
351.2	0.026145
352	0.024931
352.8	0.023991
353.6	0.023629
354.4	0.022008
355.2	0.021205
356	0.020296
356.8	0.019319
357.6	0.018342
358.4	0.017604
359.2	0.016248
360	0.015446
360.8	0.014324
361.6	0.013851
362.4	0.013265
363.2	0.011969
364	0.01186
364.8	0.011252
365.6	0.010648
366.4	0.010203
367.2	0.0091114
368	0.0093021
368.8	0.010026
369.6	0.011245
370.4	0.010266
371.2	0.009848
372	0.0088187
372.8	0.009097
373.6	0.0085253
374.4	0.0092596
375.2	0.017138
376	0.03578
376.8	0.039448
377.6	0.096535
378.4	0.027238
379.2	0.033038
380	0.050539
380.8	0.080188
381.6	0.063227
382.4	0.037802
383.2	0.029197
384	0.030479
384.8	0.02302
385.6	0.013151
386.4	0.0087666
387.2	0.0067047
388	0.0058435
388.8	0.0050234
389.6	0.0039757
390.4	0.0030988
391.2	0.0028168
392	0.0025808
392.8	0.0027469
393.6	0.0027325
394.4	0.0023589
395.2	0.0022627
396	0.0021751
396.8	0.001865
397.6	0.0025751
398.4	0.0041991
399.2	0.0045054
400	0.0029554
400.8	0.007338
401.6	0.010191
402.4	0.0058573
403.2	0.0027675
404	0.0029372
404.8	0.0037695
405.6	0.002838
406.4	0.0031636
407.2	0.0042964
408	0.0075656
408.8	0.011961
409.6	0.018695
410.4	0.019852
411.2	0.032105
412	0.047908
412.8	0.035184
413.6	0.03811
414.4	0.023365
415.2	0.024482
416	0.040411
416.8	0.042261
417.6	0.049247
418.4	0.02436
419.2	0.012987
420	0.0074687
420.8	0.0049558
421.6	0.0043489
422.4	0.0045221
423.2	0.0083533
424	0.00641
424.8	0.0068216
425.6	0.0043265
426.4	0.0034102
427.2	0.0044289
428	0.0061909
428.8	0.0053372
429.6	0.0094888
430.4	0.016517
431.2	0.011468
432	0.011284
432.8	0.0094508
433.6	0.011498
434.4	0.020263
435.2	0.018496
436	0.01465
436.8	0.0099398
437.6	0.018419
438.4	0.028086
439.2	0.017991
440	0.012729
440.8	0.0065597
441.6	0.0058954
442.4	0.0087551
443.2	0.01051
444	0.007692
444.8	0.0065511
445.6	0.0044159
446.4	0.0037543
447.2	0.0038834
448	0.0035394
448.8	0.003888
449.6	0.0050981
450.4	0.0048697
451.2	0.0045674
452	0.0045249
452.8	0.0044895
453.6	0.0047848
454.4	0.0060041
455.2	0.0074012
456	0.0067705
456.8	0.0049273
457.6	0.0060754
458.4	0.0062231
459.2	0.0051093
460	0.0042248
460.8	0.004002
461.6	0.0040543
462.4	0.0042813
463.2	0.0062158
464	0.0094072
464.8	0.0079897
465.6	0.0068765
466.4	0.0070134
467.2	0.0099124
468	0.016145
468.8	0.02372
469.6	0.030214
470.4	0.014575
471.2	0.012797
472	0.016983
472.8	0.016737
473.6	0.025344
474.4	0.04059
475.2	0.04465
476	0.031542
476.8	0.043352
477.6	0.057501
478.4	0.064489
479.2	0.039687
480	0.025834
480.8	0.026245
481.6	0.026314
482.4	0.029405
483.2	0.039843
484	0.054062
484.8	0.065617
485.6	0.079678
486.4	0.087287
487.2	0.10363
488	0.10119
488.8	0.064614
489.6	0.037132
490.4	0.024527
491.2	0.017494
492	0.013212
492.8	0.010604
493.6	0.0094738
494.4	0.0085055
495.2	0.0080288
496	0.0071598
496.8	0.0064922
497.6	0.0064504
498.4	0.0060035
499.2	0.0058165

File: 003-ems.txt
# Optical emission spectrum of Ce:GdLiF4 (Ce:GdLiF4)
# assuming unity concentration per meter.  This data was part of the NASA
# Laser Spectra Database found on the web until December of 2005 which
# was created by Pat Cross working at NASA Langley Research Center, Internal
# Operations Group, Aerospace Electronics Systems Division, Remote Sensing.
#
# The spectra was collected by GA on 15 August 1994 and was
# annotated on  4 April 1995.  The sample name was "" was a 9.990
# long piece of :.
# The incident light was unpolarized.
#
# Spectra were recorded from 260nm to 499.2nm
# every 0.1nm at room temperature.  The
# excitation wavelength was unknown.
#
# SLIT WIDTH IS 1500 MICRONS, SAMPLE SHAPE IS CYLINDRICAL, C-AXIS PERP. TO LONG CYLINDER AXIS, PUMP IS ALONG A(=B AXIS & LONG AXIS) OF CRYSTAL. SAMPLE IS PLACED SUCH THAT C-AXIS IS IN THE SAME DIRECTION AS EMISSION (S-POL) DATA MISSING FROM 12 POINTS ON INPUT DATA FILE. SET MISSING DATA POINTS TO ZERO. FORMAT(1X,G15.8).
#
##Wavelength (nm)	Absorbance (/meter)
260	0.0049954
260.8	0.0053264
261.6	0.0049725
262.4	0.0053341
263.2	0.0053625
264	0.0057745
264.8	0.0052319
265.6	0.0049611
266.4	0.0055902
267.2	0.0057661
268	0.0060678
268.8	0.0049568
269.6	0.0049831
270.4	0.0031809
271.2	0.0021911
272	0.00056689
272.8	0.00061532
273.6	0.00036092
274.4	0.00063514
275.2	0.00040496
276	0.00058741
276.8	0.00065609
277.6	0.00095299
278.4	0.0002476
279.2	0.00087036
280	9.3146e-05
280.8	0.00060761
281.6	0
282.4	0
283.2	0.00043245
284	0.00074256
284.8	0.0003937
285.6	0.00056812
286.4	0.00037729
287.2	0.00085776
288	0.00053277
288.8	0.00021071
289.6	0
290.4	0.00089575
291.2	0
292	0.00086697
292.8	0.00088168
293.6	0.0010335
294.4	0.00044003
295.2	0.00048541
296	0.00050772
296.8	0.0012025
297.6	0.0014442
298.4	0.0020004
299.2	0.0026754
300	0.0043962
300.8	0.0077369
301.6	0.01441
302.4	0.028973
303.2	0.053155
304	0.087993
304.8	0.11864
305.6	0.14789
306.4	0.17419
307.2	0.19684
308	0.22863
308.8	0.2228
309.6	0.25932
310.4	0.56652
311.2	0.99417
312	0.52605
312.8	0.2786
313.6	0.3296
314.4	0.39055
315.2	0.26179
316	0.17496
316.8	0.15052
317.6	0.15332
318.4	0.16319
319.2	0.17164
320	0.17796
320.8	0.18207
321.6	0.18575
322.4	0.18375
323.2	0.18156
324	0.17685
324.8	0.16878
325.6	0.16107
326.4	0.1523
327.2	0.1417
328	0.13115
328.8	0.11983
329.6	0.11165
330.4	0.10069
331.2	0.091578
332	0.083688
332.8	0.076247
333.6	0.069031
334.4	0.062421
335.2	0.056762
336	0.051857
336.8	0.047678
337.6	0.043992
338.4	0.041495
339.2	0.039334
340	0.037877
340.8	0.036741
341.6	0.0357
342.4	0.03498
343.2	0.034612
344	0.034033
344.8	0.034142
345.6	0.033858
346.4	0.033653
347.2	0.033047
348	0.032225
348.8	0.031288
349.6	0.030452
350.4	0.029304
351.2	0.028477
352	0.027648
352.8	0.02613
353.6	0.0246
354.4	0.023545
355.2	0.022532
356	0.021041
356.8	0.019869
357.6	0.018325
358.4	0.017564
359.2	0.016383
360	0.015471
360.8	0.014359
361.6	0.013388
362.4	0.012381
363.2	0.011387
364	0.010592
364.8	0.0099333
365.6	0.0092196
366.4	0.0085742
367.2	0.0079414
368	0.0077781
368.8	0.0076975
369.6	0.0072895
370.4	0.0067043
371.2	0.0069394
372	0.0064729
372.8	0.006371
373.6	0.0060819
374.4	0.0060479
375.2	0.0077643
376	0.013392
376.8	0.019834
377.6	0.023086
378.4	0.022334
379.2	0.021834
380	0.028281
380.8	0.037894
381.6	0.027688
382.4	0.0183
383.2	0.015581
384	0.016895
384.8	0.012846
385.6	0.0079487
386.4	0.0057154
387.2	0.0042214
388	0.0035622
388.8	0.0031486
389.6	0.002714
390.4	0.0022648
391.2	0.0020229
392	0.0019165
392.8	0.0021227
393.6	0.0012649
394.4	0.0018454
395.2	0.0017857
396	0.0017836
396.8	0.0017093
397.6	0.0019033
398.4	0.0027951
399.2	0.0028027
400	0.0029589
400.8	0.0031907
401.6	0.0045126
402.4	0.0041648
403.2	0.0019587
404	0.0021969
404.8	0.0025291
405.6	0.0019939
406.4	0.0022257
407.2	0.0032243
408	0.0045833
408.8	0.0064212
409.6	0.0090363
410.4	0.010145
411.2	0.012781
412	0.019205
412.8	0.023264
413.6	0.020137
414.4	0.010155
415.2	0.0090914
416	0.015593
416.8	0.015172
417.6	0.012451
418.4	0.0075039
419.2	0.0046735
420	0.0032697
420.8	0.0027183
421.6	0.0027085
422.4	0.002613
423.2	0.0029406
424	0.0031684
424.8	0.0037153
425.6	0.0028142
426.4	0.0023402
427.2	0.0038931
428	0.004149
428.8	0.0035969
429.6	0.0043737
430.4	0.00667
431.2	0.0057282
432	0.0046312
432.8	0.0049191
433.6	0.0082318
434.4	0.01942
435.2	0.020646
436	0.011477
436.8	0.0079113
437.6	0.011919
438.4	0.010907
439.2	0.010854
440	0.0079331
440.8	0.0046618
441.6	0.00406
442.4	0.0064272
443.2	0.0064128
444	0.0044686
444.8	0.0041435
445.6	0.0034077
446.4	0.003016
447.2	0.0028806
448	0.0029386
448.8	0.0029354
449.6	0.0026775
450.4	0.0028997
451.2	0.0028794
452	0.0028735
452.8	0.0031053
453.6	0.0036435
454.4	0.0043752
455.2	0.0043127
456	0.0037963
456.8	0.0032738
457.6	0.0049697
458.4	0.0053298
459.2	0.0050318
460	0.0038184
460.8	0.0033218
461.6	0.0028698
462.4	0.003138
463.2	0.0046987
464	0.0064355
464.8	0.0054501
465.6	0.0046097
466.4	0.0046776
467.2	0.0061184
468	0
468.8	0.010711
469.6	0.010603
470.4	0.0072148
471.2	0.0064447
472	0.0080795
472.8	0.012454
473.6	0.022491
474.4	0.022527
475.2	0.019878
476	0.018822
476.8	0.020421
477.6	0.027091
478.4	0.045342
479.2	0.02798
480	0.016148
480.8	0.013403
481.6	0.01347
482.4	0.014428
483.2	0.0167
484	0.020261
484.8	0.0244
485.6	0.029264
486.4	0.031487
487.2	0.032452
488	0.028019
488.8	0.017384
489.6	0.011641
490.4	0.0088543
491.2	0.0072878
492	0.0063991
492.8	0.0056612
493.6	0.0050825
494.4	0.0048864
495.2	0.0045796
496	0.0043773
496.8	0.0041706
497.6	0.0039604
498.4	0.0039673
499.2	0.0040245

File: 005-ems.txt
# Optical emission spectrum of Ce:KYF4 (Ce:KYF4)
# assuming unity concentration per meter.  This data was part of the NASA
# Laser Spectra Database found on the web until December of 2005 which
# was created by Pat Cross working at NASA Langley Research Center, Internal
# Operations Group, Aerospace Electronics Systems Division, Remote Sensing.
#
# The spectra was collected by GA on 15 August 1994 and was
# annotated on  6 April 1995.  The sample name was "" was a 9.990
# long piece of :.
# The incident light was unpolarized.
#
# Spectra were recorded from 279.8nm to 449.4nm
# every 0.1nm at room temperature.  The
# excitation wavelength was unknown.
#
# SLIT WIDTH IS 1500 MICRONS, SAMPLE IS RECTANGULAR. C-AXIS IS CUT PERP. TO LONG AXIS OF CRYSTAL. PUMP LIGHT IS ALONG A(=B & LONG AXIS ) OF CRYSTAL. SAMPLE IS PLACED WITH C-AXIS IN THE SAME DIRECTION AS EMISSION OBSERVED. (SIGMA POL.) MANY RECORDS MISSING FROM END OF FILE. FILE TRUNCATED AT MISSING DATA POINTS. CONCENTRATION IS ATOMIC PERCENT. FORMAT(1X,G15.8).
#
##Wavelength (nm)	Absorbance (/meter)
279.8	0.00155387
280.4	0.00272437
281	0.00188632
281.6	0.00276294
282.2	0.00258408
282.8	0.00369924
283.4	0.00266639
284	0.00198894
284.6	0.00223146
285.2	0.00322605
285.8	0.00491978
286.4	0.00369236
287	0.00212031
287.6	0.00548977
288.2	0.00515073
288.8	0.00479915
289.4	0.00609169
290	0.00710513
290.6	0.0061794
291.2	0.00774488
291.8	0.00994005
292.4	0.0104926
293	0.0128347
293.6	0.015047
294.2	0.0192566
294.8	0.0255215
295.4	0.0356902
296	0.047225
296.6	0.0675184
297.2	0.0939046
297.8	0.127376
298.4	0.172272
299	0.225205
299.6	0.282068
300.2	0.346928
300.8	0.416407
301.4	0.488539
302	0.558632
302.6	0.635825
303.2	0.704444
303.8	0.772228
304.4	0.834165
305	0.882195
305.6	0.921161
306.2	0.951576
306.8	0.969167
307.4	0.980837
308	0.990443
308.6	0.997371
309.2	1
309.8	0.996536
310.4	0.988404
311	0.97639
311.6	0.96472
312.2	0.959733
312.8	0.950077
313.4	0.936491
314	0.923077
314.6	0.90922
315.2	0.891359
315.8	0.87485
316.4	0.864433
317	0.846989
317.6	0.828342
318.2	0.811021
318.8	0.79429
319.4	0.777682
320	0.763089
320.6	0.747537
321.2	0.735155
321.8	0.71948
322.4	0.706484
323	0.692136
323.6	0.677665
324.2	0.668354
324.8	0.654006
325.4	0.64155
326	0.630027
326.6	0.617006
327.2	0.604648
327.8	0.594133
328.4	0.581161
329	0.569319
329.6	0.557207
330.2	0.545586
330.8	0.534997
331.4	0.523229
332	0.512002
332.6	0.500258
333.2	0.488834
333.8	0.477975
334.4	0.466354
335	0.45493
335.6	0.444906
336.2	0.434145
336.8	0.42449
337.4	0.412844
338	0.403017
338.6	0.392625
339.2	0.381422
339.8	0.372282
340.4	0.361497
341	0.352824
341.6	0.341695
342.2	0.330541
342.8	0.321524
343.4	0.311869
344	0.303123
344.6	0.294229
345.2	0.291944
345.8	0.275876
346.4	0.267302
347	0.260276
347.6	0.251996
348.2	0.243712
348.8	0.23612
349.4	0.227352
350	0.218107
350.6	0.212505
351.2	0.206601
351.8	0.199975
352.4	0.193504
353	0.18835
353.6	0.182409
354.2	0.176208
354.8	0.169506
355.4	0.164742
356	0.159313
356.6	0.153593
357.2	0.147871
357.8	0.143336
358.4	0.140031
359	0.135189
359.6	0.132383
360.2	0.128922
360.8	0.125487
361.4	0.121028
362	0.11678
362.6	0.112898
363.2	0.10826
363.8	0.104872
364.4	0.100872
365	0.0970469
365.6	0.0932511
366.2	0.0900474
366.8	0.0869862
367.4	0.0836449
368	0.079859
368.6	0.0771417
369.2	0.0738742
369.8	0.0708351
370.4	0.0678574
371	0.0652507
371.6	0.0628922
372.2	0.0605312
372.8	0.0584158
373.4	0.0560376
374	0.0539493
374.6	0.0525833
375.2	0.0501879
375.8	0.0485836
376.4	0.0467189
377	0.0451171
377.6	0.043245
378.2	0.0420976
378.8	0.0404491
379.4	0.0392232
380	0.0370759
380.6	0.0358819
381.2	0.0347517
381.8	0.033796
382.4	0.0327077
383	0.0312852
383.6	0.0303344
384.2	0.0294769
384.8	0.0285999
385.4	0.0275901
386	0.0270299
386.6	0.0262413
387.2	0.0252365
387.8	0.024696
388.4	0.0240361
389	0.023203
389.6	0.0218682
390.2	0.0213142
390.8	0.0208196
391.4	0.019941
392	0.0197587
392.6	0.0196516
393.2	0.0190183
393.8	0.0187544
394.4	0.0176559
395	0.0171282
395.6	0.0171329
396.2	0.0168393
396.8	0.0165396
397.4	0.0158504
398	0.0161013
398.6	0.015721
399.2	0.01525
399.8	0.0145486
400.4	0.013573
401	0.0136784
401.6	0.0132931
402.2	0.0127322
402.8	0.0130922
403.4	0.0126111
404	0.0125814
404.6	0.012703
405.2	0.0127099
405.8	0.0120642
406.4	0.0112365
407	0.0101339
407.6	0.0108655
408.2	0.0106909
408.8	0.0104847
409.4	0.010114
410	0.0101081
410.6	0.00953664
411.2	0.00969953
411.8	0.00981009
412.4	0.00952829
413	0.0100226
413.6	0.0098747
414.2	0.00889296
414.8	0.00861558
415.4	0.00898754
416	0.00839496
416.6	0.0082387
417.2	0.00791367
417.8	0.00818392
418.4	0.00799179
419	0.00725401
419.6	0.00716385
420.2	0.00762106
420.8	0.0075417
421.4	0.00828686
422	0.00815026
422.6	0.00782694
423.2	0.00788689
423.8	0.00757585
424.4	0.00639068
425	0.00646119
425.6	0.00572538
426.2	0.00573692
426.8	0.0060966
427.4	0.00642926
428	0.00601258
428.6	0.00505982
429.2	0.00562907
429.8	0.00580228
430.4	0.00631919
431	0.00553817
431.6	0.00492077
432.2	0.00416529
432.8	0.00458615
433.4	0.00500405
434	0.00616834
434.6	0.00490873
435.2	0.00549566
435.8	0.00861607
436.4	0.00653121
437	0.0044466
437.6	0.00441343
438.2	0.00414441
438.8	0.00414736
439.4	0.00345183
440	0.0039287
440.6	0.00423433
441.2	0.00485419
441.8	0.00784635
442.4	0.00454291
443	0.00383878
443.6	0.0040255
444.2	0.00420485
444.8	0.00429845
445.4	0.0042503
446	0.00411026
446.6	0.00369776
447.2	0.00373683
447.8	0.00278947
448.4	0.00320296
449	0.00360784
449.4	0.00357664